SpectraSuite Data File
++++++++++++++++++++++++++++++++++++
Date: Tues Jan 22 19:58:04 CDT 2019
User: DOTPAT
Dark Spectrum Present: No
Reference Spectrum Present: No
Number of Sampled Component Spectra: 1
Spectrometers: USB2E7649
Integration Time (usec): 100000 (USB2E7649)
Spectra Averaged: 1 (USB2E7649)
Boxcar Smoothing: 0 (USB2E7649)
Correct for Electrical Dark: Yes (USB2E7649)
Strobe/Lamp Enabled: No (USB2E7649)
Correct for Detector Non-linearity: No (USB2E7649)
Correct for Stray Light: No (USB2E7649)
Number of Pixels in Processed Spectrum: 2048
>>>>>Begin Processed Spectral Data<<<<<
370.53	-129.33
370.90	1.67
371.28	8.67
371.66	2.67
372.03	8.67
372.41	12.67
372.79	5.67
373.16	5.67
373.54	6.67
373.92	7.67
374.29	8.67
374.67	5.67
375.05	9.67
375.42	8.67
375.80	12.67
376.18	7.67
376.55	6.67
376.93	9.67
377.31	12.67
377.68	9.67
378.06	9.67
378.43	9.67
378.81	7.67
379.19	7.67
379.56	9.67
379.94	6.67
380.31	7.67
380.69	10.67
381.07	9.67
381.44	7.67
381.82	8.67
382.19	10.67
382.57	11.67
382.94	13.67
383.32	12.67
383.70	9.67
384.07	12.67
384.45	13.67
384.82	9.67
385.20	12.67
385.57	11.67
385.95	10.67
386.32	7.67
386.70	13.67
387.07	19.67
387.45	16.67
387.83	9.67
388.20	12.67
388.58	12.67
388.95	7.67
389.33	12.67
389.70	6.67
390.08	10.67
390.45	11.67
390.83	8.67
391.20	11.67
391.58	10.67
391.95	17.67
392.32	10.67
392.70	11.67
393.07	12.67
393.45	12.67
393.82	9.67
394.20	11.67
394.57	7.67
394.95	13.67
395.32	16.67
395.70	9.67
396.07	12.67
396.45	11.67
396.82	12.67
397.19	13.67
397.57	10.67
397.94	12.67
398.32	11.67
398.69	12.67
399.07	8.67
399.44	16.67
399.81	10.67
400.19	12.67
400.56	12.67
400.94	14.67
401.31	15.67
401.68	19.67
402.06	10.67
402.43	16.67
402.80	9.67
403.18	15.67
403.55	15.67
403.93	12.67
404.30	12.67
404.67	9.67
405.05	13.67
405.42	11.67
405.79	10.67
406.17	12.67
406.54	7.67
406.91	14.67
407.29	9.67
407.66	12.67
408.03	12.67
408.41	16.67
408.78	17.67
409.15	11.67
409.53	16.67
409.90	9.67
410.27	10.67
410.65	13.67
411.02	12.67
411.39	17.67
411.76	11.67
412.14	9.67
412.51	8.67
412.88	10.67
413.26	9.67
413.63	13.67
414.00	9.67
414.37	7.67
414.75	12.67
415.12	14.67
415.49	14.67
415.86	13.67
416.24	6.67
416.61	16.67
416.98	12.67
417.35	12.67
417.73	15.67
418.10	11.67
418.47	15.67
418.84	14.67
419.21	17.67
419.59	13.67
419.96	13.67
420.33	10.67
420.70	9.67
421.07	10.67
421.45	9.67
421.82	11.67
422.19	16.67
422.56	12.67
422.93	14.67
423.31	9.67
423.68	13.67
424.05	11.67
424.42	10.67
424.79	18.67
425.16	10.67
425.54	13.67
425.91	16.67
426.28	13.67
426.65	10.67
427.02	8.67
427.39	11.67
427.76	13.67
428.13	10.67
428.51	13.67
428.88	13.67
429.25	16.67
429.62	13.67
429.99	10.67
430.36	17.67
430.73	16.67
431.10	11.67
431.47	10.67
431.85	9.67
432.22	8.67
432.59	18.67
432.96	17.67
433.33	13.67
433.70	15.67
434.07	11.67
434.44	9.67
434.81	10.67
435.18	12.67
435.55	10.67
435.92	14.67
436.29	13.67
436.66	11.67
437.03	11.67
437.40	18.67
437.77	11.67
438.14	10.67
438.51	5.67
438.89	7.67
439.26	12.67
439.63	14.67
440.00	15.67
440.37	7.67
440.74	8.67
441.11	9.67
441.48	12.67
441.85	7.67
442.22	9.67
442.58	13.67
442.95	12.67
443.32	13.67
443.69	13.67
444.06	12.67
444.43	13.67
444.80	13.67
445.17	14.67
445.54	17.67
445.91	21.67
446.28	15.67
446.65	17.67
447.02	13.67
447.39	15.67
447.76	11.67
448.13	11.67
448.50	22.67
448.87	7.67
449.23	22.67
449.60	17.67
449.97	12.67
450.34	11.67
450.71	13.67
451.08	12.67
451.45	12.67
451.82	18.67
452.19	12.67
452.56	15.67
452.92	11.67
453.29	15.67
453.66	21.67
454.03	19.67
454.40	21.67
454.77	16.67
455.14	24.67
455.50	18.67
455.87	23.67
456.24	24.67
456.61	21.67
456.98	19.67
457.35	19.67
457.71	20.67
458.08	17.67
458.45	21.67
458.82	30.67
459.19	27.67
459.55	20.67
459.92	21.67
460.29	24.67
460.66	25.67
461.03	20.67
461.39	23.67
461.76	25.67
462.13	23.67
462.50	21.67
462.87	23.67
463.23	22.67
463.60	22.67
463.97	25.67
464.34	19.67
464.70	24.67
465.07	23.67
465.44	22.67
465.81	23.67
466.17	25.67
466.54	26.67
466.91	29.67
467.28	24.67
467.64	23.67
468.01	22.67
468.38	25.67
468.74	25.67
469.11	21.67
469.48	24.67
469.84	24.67
470.21	23.67
470.58	24.67
470.95	23.67
471.31	24.67
471.68	26.67
472.05	21.67
472.41	20.67
472.78	30.67
473.15	26.67
473.51	27.67
473.88	24.67
474.25	26.67
474.61	21.67
474.98	34.67
475.35	25.67
475.71	27.67
476.08	23.67
476.44	22.67
476.81	27.67
477.18	28.67
477.54	22.67
477.91	28.67
478.27	30.67
478.64	31.67
479.01	25.67
479.37	31.67
479.74	27.67
480.10	27.67
480.47	32.67
480.84	28.67
481.20	30.67
481.57	22.67
481.93	32.67
482.30	25.67
482.67	28.67
483.03	37.67
483.40	37.67
483.76	33.67
484.13	31.67
484.49	30.67
484.86	41.67
485.22	35.67
485.59	40.67
485.95	34.67
486.32	38.67
486.68	43.67
487.05	35.67
487.41	37.67
487.78	37.67
488.14	44.67
488.51	47.67
488.87	46.67
489.24	41.67
489.60	48.67
489.97	48.67
490.33	50.67
490.70	53.67
491.06	48.67
491.43	51.67
491.79	52.67
492.16	63.67
492.52	61.67
492.89	63.67
493.25	67.67
493.62	71.67
493.98	73.67
494.34	82.67
494.71	86.67
495.07	84.67
495.44	89.67
495.80	87.67
496.17	93.67
496.53	88.67
496.89	108.67
497.26	115.67
497.62	113.67
497.99	124.67
498.35	131.67
498.71	135.67
499.08	136.67
499.44	149.67
499.81	151.67
500.17	159.67
500.53	178.67
500.90	180.67
501.26	186.67
501.62	203.67
501.99	207.67
502.35	211.67
502.71	235.67
503.08	251.67
503.44	273.67
503.80	266.67
504.17	280.67
504.53	291.67
504.89	315.67
505.26	323.67
505.62	344.67
505.98	355.67
506.35	387.67
506.71	391.67
507.07	414.67
507.44	417.67
507.80	443.67
508.16	469.67
508.53	480.67
508.89	513.67
509.25	526.67
509.61	553.67
509.98	574.67
510.34	594.67
510.70	615.67
511.06	667.67
511.43	674.67
511.79	683.67
512.15	714.67
512.51	748.67
512.88	804.67
513.24	837.67
513.60	842.67
513.96	858.67
514.33	890.67
514.69	925.67
515.05	970.67
515.41	1008.67
515.77	1046.67
516.14	1071.67
516.50	1104.67
516.86	1152.67
517.22	1187.67
517.58	1197.67
517.95	1214.67
518.31	1255.67
518.67	1277.67
519.03	1323.67
519.39	1338.67
519.75	1392.67
520.12	1380.67
520.48	1420.67
520.84	1477.67
521.20	1508.67
521.56	1549.67
521.92	1567.67
522.28	1604.67
522.65	1636.67
523.01	1644.67
523.37	1698.67
523.73	1704.67
524.09	1690.67
524.45	1699.67
524.81	1711.67
525.17	1708.67
525.53	1712.67
525.89	1740.67
526.26	1765.67
526.62	1780.67
526.98	1843.67
527.34	1848.67
527.70	1897.67
528.06	1860.67
528.42	1880.67
528.78	1894.67
529.14	1875.67
529.50	1912.67
529.86	1878.67
530.22	1879.67
530.58	1911.67
530.94	1918.67
531.30	1925.67
531.66	1918.67
532.02	1901.67
532.38	1923.67
532.74	1946.67
533.11	1913.67
533.47	1909.67
533.83	1894.67
534.19	1857.67
534.55	1835.67
534.91	1814.67
535.27	1769.67
535.62	1756.67
535.98	1772.67
536.34	1788.67
536.70	1805.67
537.06	1798.67
537.42	1771.67
537.78	1709.67
538.14	1727.67
538.50	1731.67
538.86	1698.67
539.22	1690.67
539.58	1683.67
539.94	1646.67
540.30	1622.67
540.66	1572.67
541.02	1569.67
541.38	1523.67
541.74	1510.67
542.10	1490.67
542.45	1462.67
542.81	1431.67
543.17	1406.67
543.53	1387.67
543.89	1368.67
544.25	1347.67
544.61	1315.67
544.97	1273.67
545.33	1269.67
545.68	1252.67
546.04	1252.67
546.40	1210.67
546.76	1175.67
547.12	1138.67
547.48	1118.67
547.84	1116.67
548.19	1076.67
548.55	1086.67
548.91	1031.67
549.27	1005.67
549.63	999.67
549.99	955.67
550.34	963.67
550.70	924.67
551.06	897.67
551.42	868.67
551.78	851.67
552.13	832.67
552.49	817.67
552.85	770.67
553.21	777.67
553.57	736.67
553.92	714.67
554.28	689.67
554.64	671.67
555.00	639.67
555.35	624.67
555.71	621.67
556.07	606.67
556.43	573.67
556.78	540.67
557.14	525.67
557.50	503.67
557.86	494.67
558.21	477.67
558.57	453.67
558.93	436.67
559.28	439.67
559.64	412.67
560.00	400.67
560.36	380.67
560.71	361.67
561.07	351.67
561.43	343.67
561.78	321.67
562.14	311.67
562.50	296.67
562.85	287.67
563.21	273.67
563.57	263.67
563.92	263.67
564.28	239.67
564.64	238.67
564.99	228.67
565.35	209.67
565.71	200.67
566.06	194.67
566.42	179.67
566.78	178.67
567.13	174.67
567.49	157.67
567.84	153.67
568.20	149.67
568.56	130.67
568.91	130.67
569.27	130.67
569.62	122.67
569.98	107.67
570.34	107.67
570.69	103.67
571.05	97.67
571.40	87.67
571.76	82.67
572.12	83.67
572.47	80.67
572.83	71.67
573.18	70.67
573.54	72.67
573.89	62.67
574.25	55.67
574.60	52.67
574.96	58.67
575.31	52.67
575.67	49.67
576.02	43.67
576.38	39.67
576.74	40.67
577.09	30.67
577.45	34.67
577.80	39.67
578.16	29.67
578.51	28.67
578.86	30.67
579.22	37.67
579.57	19.67
579.93	23.67
580.28	28.67
580.64	26.67
580.99	17.67
581.35	23.67
581.70	21.67
582.06	20.67
582.41	20.67
582.77	21.67
583.12	17.67
583.47	22.67
583.83	16.67
584.18	20.67
584.54	16.67
584.89	20.67
585.25	18.67
585.60	18.67
585.95	17.67
586.31	15.67
586.66	19.67
587.02	16.67
587.37	14.67
587.72	11.67
588.08	15.67
588.43	18.67
588.78	13.67
589.14	13.67
589.49	21.67
589.85	20.67
590.20	21.67
590.55	17.67
590.91	17.67
591.26	18.67
591.61	16.67
591.97	17.67
592.32	22.67
592.67	16.67
593.03	15.67
593.38	13.67
593.73	14.67
594.09	13.67
594.44	17.67
594.79	16.67
595.14	17.67
595.50	15.67
595.85	16.67
596.20	17.67
596.56	18.67
596.91	16.67
597.26	17.67
597.61	13.67
597.97	14.67
598.32	13.67
598.67	15.67
599.02	14.67
599.38	19.67
599.73	14.67
600.08	16.67
600.43	14.67
600.79	14.67
601.14	17.67
601.49	12.67
601.84	9.67
602.19	15.67
602.55	11.67
602.90	18.67
603.25	16.67
603.60	15.67
603.95	14.67
604.31	15.67
604.66	17.67
605.01	15.67
605.36	13.67
605.71	16.67
606.06	13.67
606.42	18.67
606.77	18.67
607.12	17.67
607.47	16.67
607.82	19.67
608.17	19.67
608.52	17.67
608.88	17.67
609.23	14.67
609.58	18.67
609.93	20.67
610.28	18.67
610.63	18.67
610.98	18.67
611.33	20.67
611.69	16.67
612.04	12.67
612.39	22.67
612.74	18.67
613.09	11.67
613.44	15.67
613.79	13.67
614.14	19.67
614.49	10.67
614.84	14.67
615.19	16.67
615.54	19.67
615.89	12.67
616.24	15.67
616.59	13.67
616.94	16.67
617.29	17.67
617.64	18.67
617.99	13.67
618.35	14.67
618.70	14.67
619.05	7.67
619.40	13.67
619.75	15.67
620.10	18.67
620.45	11.67
620.79	14.67
621.14	15.67
621.49	13.67
621.84	10.67
622.19	13.67
622.54	16.67
622.89	20.67
623.24	14.67
623.59	16.67
623.94	14.67
624.29	16.67
624.64	19.67
624.99	13.67
625.34	12.67
625.69	13.67
626.04	11.67
626.39	14.67
626.74	13.67
627.08	15.67
627.43	11.67
627.78	12.67
628.13	15.67
628.48	13.67
628.83	14.67
629.18	14.67
629.53	14.67
629.88	12.67
630.22	18.67
630.57	24.67
630.92	21.67
631.27	23.67
631.62	10.67
631.97	15.67
632.32	14.67
632.66	14.67
633.01	14.67
633.36	17.67
633.71	16.67
634.06	13.67
634.41	13.67
634.75	18.67
635.10	14.67
635.45	13.67
635.80	15.67
636.15	11.67
636.49	16.67
636.84	13.67
637.19	12.67
637.54	17.67
637.88	25.67
638.23	13.67
638.58	12.67
638.93	12.67
639.27	9.67
639.62	10.67
639.97	12.67
640.32	13.67
640.66	14.67
641.01	14.67
641.36	10.67
641.71	14.67
642.05	14.67
642.40	12.67
642.75	11.67
643.10	13.67
643.44	18.67
643.79	8.67
644.14	12.67
644.48	9.67
644.83	9.67
645.18	17.67
645.52	12.67
645.87	17.67
646.22	20.67
646.56	24.67
646.91	17.67
647.26	16.67
647.60	8.67
647.95	12.67
648.30	12.67
648.64	12.67
648.99	17.67
649.33	11.67
649.68	17.67
650.03	18.67
650.37	17.67
650.72	11.67
651.07	14.67
651.41	11.67
651.76	17.67
652.10	13.67
652.45	17.67
652.80	13.67
653.14	11.67
653.49	14.67
653.83	22.67
654.18	13.67
654.52	14.67
654.87	14.67
655.22	15.67
655.56	17.67
655.91	14.67
656.25	10.67
656.60	11.67
656.94	10.67
657.29	14.67
657.63	11.67
657.98	13.67
658.32	9.67
658.67	14.67
659.01	15.67
659.36	18.67
659.70	12.67
660.05	13.67
660.39	16.67
660.74	15.67
661.08	16.67
661.43	15.67
661.77	15.67
662.12	10.67
662.46	12.67
662.81	17.67
663.15	16.67
663.49	12.67
663.84	13.67
664.18	13.67
664.53	12.67
664.87	14.67
665.22	11.67
665.56	12.67
665.90	11.67
666.25	9.67
666.59	15.67
666.94	14.67
667.28	13.67
667.63	15.67
667.97	15.67
668.31	15.67
668.66	17.67
669.00	16.67
669.34	11.67
669.69	10.67
670.03	7.67
670.38	10.67
670.72	13.67
671.06	10.67
671.41	12.67
671.75	12.67
672.09	11.67
672.44	15.67
672.78	9.67
673.12	13.67
673.47	14.67
673.81	12.67
674.15	10.67
674.49	10.67
674.84	12.67
675.18	14.67
675.52	12.67
675.87	15.67
676.21	17.67
676.55	11.67
676.89	9.67
677.24	8.67
677.58	12.67
677.92	13.67
678.27	10.67
678.61	14.67
678.95	8.67
679.29	13.67
679.64	14.67
679.98	12.67
680.32	15.67
680.66	14.67
681.00	20.67
681.35	9.67
681.69	14.67
682.03	11.67
682.37	10.67
682.71	10.67
683.06	9.67
683.40	17.67
683.74	13.67
684.08	12.67
684.42	13.67
684.77	18.67
685.11	10.67
685.45	13.67
685.79	16.67
686.13	15.67
686.47	12.67
686.81	11.67
687.16	13.67
687.50	12.67
687.84	13.67
688.18	17.67
688.52	16.67
688.86	14.67
689.20	10.67
689.54	5.67
689.89	8.67
690.23	9.67
690.57	8.67
690.91	12.67
691.25	11.67
691.59	12.67
691.93	12.67
692.27	10.67
692.61	11.67
692.95	10.67
693.29	15.67
693.63	16.67
693.97	12.67
694.32	14.67
694.66	12.67
695.00	11.67
695.34	10.67
695.68	7.67
696.02	6.67
696.36	15.67
696.70	15.67
697.04	17.67
697.38	14.67
697.72	9.67
698.06	13.67
698.40	11.67
698.74	11.67
699.08	10.67
699.42	12.67
699.76	8.67
700.10	17.67
700.44	19.67
700.78	14.67
701.11	15.67
701.45	13.67
701.79	17.67
702.13	13.67
702.47	7.67
702.81	7.67
703.15	11.67
703.49	8.67
703.83	11.67
704.17	13.67
704.51	6.67
704.85	20.67
705.19	15.67
705.52	19.67
705.86	13.67
706.20	7.67
706.54	12.67
706.88	11.67
707.22	10.67
707.56	14.67
707.90	9.67
708.23	14.67
708.57	14.67
708.91	6.67
709.25	11.67
709.59	12.67
709.93	15.67
710.27	13.67
710.60	6.67
710.94	10.67
711.28	10.67
711.62	10.67
711.96	12.67
712.29	15.67
712.63	10.67
712.97	11.67
713.31	6.67
713.65	15.67
713.98	9.67
714.32	10.67
714.66	11.67
715.00	7.67
715.33	10.67
715.67	11.67
716.01	17.67
716.35	13.67
716.68	15.67
717.02	6.67
717.36	6.67
717.70	13.67
718.03	15.67
718.37	11.67
718.71	11.67
719.05	13.67
719.38	8.67
719.72	9.67
720.06	15.67
720.39	13.67
720.73	12.67
721.07	16.67
721.40	14.67
721.74	14.67
722.08	8.67
722.41	11.67
722.75	10.67
723.09	13.67
723.42	11.67
723.76	12.67
724.10	9.67
724.43	13.67
724.77	12.67
725.11	12.67
725.44	13.67
725.78	10.67
726.11	12.67
726.45	7.67
726.79	13.67
727.12	8.67
727.46	11.67
727.79	9.67
728.13	13.67
728.47	13.67
728.80	8.67
729.14	12.67
729.47	9.67
729.81	8.67
730.14	19.67
730.48	12.67
730.82	11.67
731.15	19.67
731.49	14.67
731.82	9.67
732.16	12.67
732.49	13.67
732.83	10.67
733.16	15.67
733.50	10.67
733.83	2.67
734.17	8.67
734.50	11.67
734.84	10.67
735.17	5.67
735.51	11.67
735.84	13.67
736.18	10.67
736.51	12.67
736.85	14.67
737.18	6.67
737.52	8.67
737.85	10.67
738.19	7.67
738.52	17.67
738.85	15.67
739.19	15.67
739.52	11.67
739.86	11.67
740.19	12.67
740.53	15.67
740.86	13.67
741.19	14.67
741.53	7.67
741.86	9.67
742.20	13.67
742.53	12.67
742.86	11.67
743.20	14.67
743.53	9.67
743.86	10.67
744.20	17.67
744.53	9.67
744.86	10.67
745.20	11.67
745.53	10.67
745.87	9.67
746.20	8.67
746.53	9.67
746.87	10.67
747.20	15.67
747.53	12.67
747.86	14.67
748.20	7.67
748.53	12.67
748.86	18.67
749.20	13.67
749.53	13.67
749.86	10.67
750.20	11.67
750.53	12.67
750.86	10.67
751.19	10.67
751.53	12.67
751.86	13.67
752.19	14.67
752.52	12.67
752.86	12.67
753.19	12.67
753.52	9.67
753.85	15.67
754.19	13.67
754.52	11.67
754.85	13.67
755.18	15.67
755.51	12.67
755.85	12.67
756.18	11.67
756.51	9.67
756.84	8.67
757.17	11.67
757.51	10.67
757.84	10.67
758.17	15.67
758.50	14.67
758.83	14.67
759.16	13.67
759.49	9.67
759.83	10.67
760.16	11.67
760.49	16.67
760.82	9.67
761.15	8.67
761.48	11.67
761.81	9.67
762.14	9.67
762.48	19.67
762.81	14.67
763.14	9.67
763.47	8.67
763.80	9.67
764.13	17.67
764.46	12.67
764.79	8.67
765.12	16.67
765.45	10.67
765.78	12.67
766.11	11.67
766.44	8.67
766.78	2.67
767.11	11.67
767.44	12.67
767.77	7.67
768.10	12.67
768.43	12.67
768.76	11.67
769.09	14.67
769.42	12.67
769.75	11.67
770.08	14.67
770.41	8.67
770.74	14.67
771.07	12.67
771.40	16.67
771.73	5.67
772.06	14.67
772.39	17.67
772.71	10.67
773.04	12.67
773.37	11.67
773.70	9.67
774.03	14.67
774.36	10.67
774.69	17.67
775.02	18.67
775.35	10.67
775.68	11.67
776.01	13.67
776.34	13.67
776.67	9.67
777.00	15.67
777.32	2.67
777.65	13.67
777.98	6.67
778.31	12.67
778.64	9.67
778.97	10.67
779.30	9.67
779.62	11.67
779.95	9.67
780.28	13.67
780.61	11.67
780.94	9.67
781.27	12.67
781.60	10.67
781.92	13.67
782.25	10.67
782.58	12.67
782.91	11.67
783.24	4.67
783.56	10.67
783.89	14.67
784.22	11.67
784.55	9.67
784.88	11.67
785.20	10.67
785.53	11.67
785.86	11.67
786.19	8.67
786.51	11.67
786.84	6.67
787.17	7.67
787.50	9.67
787.82	10.67
788.15	10.67
788.48	7.67
788.81	12.67
789.13	12.67
789.46	15.67
789.79	15.67
790.11	10.67
790.44	11.67
790.77	16.67
791.09	14.67
791.42	11.67
791.75	11.67
792.08	12.67
792.40	10.67
792.73	15.67
793.06	9.67
793.38	11.67
793.71	21.67
794.03	14.67
794.36	12.67
794.69	13.67
795.01	15.67
795.34	10.67
795.67	8.67
795.99	13.67
796.32	11.67
796.64	11.67
796.97	9.67
797.30	11.67
797.62	8.67
797.95	15.67
798.27	6.67
798.60	15.67
798.93	7.67
799.25	15.67
799.58	12.67
799.90	9.67
800.23	11.67
800.55	8.67
800.88	9.67
801.20	10.67
801.53	19.67
801.86	17.67
802.18	17.67
802.51	12.67
802.83	14.67
803.16	12.67
803.48	10.67
803.81	15.67
804.13	10.67
804.46	8.67
804.78	12.67
805.11	10.67
805.43	13.67
805.75	12.67
806.08	10.67
806.40	22.67
806.73	16.67
807.05	13.67
807.38	7.67
807.70	10.67
808.03	8.67
808.35	14.67
808.67	7.67
809.00	16.67
809.32	17.67
809.65	10.67
809.97	8.67
810.30	10.67
810.62	11.67
810.94	16.67
811.27	9.67
811.59	17.67
811.91	8.67
812.24	11.67
812.56	15.67
812.89	11.67
813.21	13.67
813.53	13.67
813.86	6.67
814.18	8.67
814.50	9.67
814.83	11.67
815.15	8.67
815.47	9.67
815.80	7.67
816.12	4.67
816.44	13.67
816.77	12.67
817.09	13.67
817.41	11.67
817.73	11.67
818.06	6.67
818.38	16.67
818.70	12.67
819.03	7.67
819.35	6.67
819.67	6.67
819.99	10.67
820.32	13.67
820.64	7.67
820.96	13.67
821.28	10.67
821.61	6.67
821.93	12.67
822.25	13.67
822.57	8.67
822.89	9.67
823.22	9.67
823.54	11.67
823.86	14.67
824.18	11.67
824.50	7.67
824.83	12.67
825.15	16.67
825.47	11.67
825.79	24.67
826.11	14.67
826.43	9.67
826.76	8.67
827.08	16.67
827.40	12.67
827.72	7.67
828.04	9.67
828.36	12.67
828.68	6.67
829.00	11.67
829.33	8.67
829.65	8.67
829.97	10.67
830.29	10.67
830.61	11.67
830.93	6.67
831.25	9.67
831.57	7.67
831.89	10.67
832.21	10.67
832.53	8.67
832.85	12.67
833.18	10.67
833.50	7.67
833.82	8.67
834.14	12.67
834.46	15.67
834.78	11.67
835.10	17.67
835.42	10.67
835.74	8.67
836.06	14.67
836.38	12.67
836.70	12.67
837.02	12.67
837.34	9.67
837.66	14.67
837.98	9.67
838.30	3.67
838.62	4.67
838.94	7.67
839.26	10.67
839.58	10.67
839.89	11.67
840.21	7.67
840.53	6.67
840.85	12.67
841.17	12.67
841.49	5.67
841.81	16.67
842.13	11.67
842.45	11.67
842.77	11.67
843.09	7.67
843.41	14.67
843.72	12.67
844.04	15.67
844.36	9.67
844.68	21.67
845.00	15.67
845.32	10.67
845.64	9.67
845.96	10.67
846.27	13.67
846.59	10.67
846.91	9.67
847.23	26.67
847.55	15.67
847.87	8.67
848.18	11.67
848.50	12.67
848.82	14.67
849.14	12.67
849.46	8.67
849.77	5.67
850.09	15.67
850.41	9.67
850.73	12.67
851.04	12.67
851.36	10.67
851.68	12.67
852.00	12.67
852.32	17.67
852.63	12.67
852.95	12.67
853.27	12.67
853.58	11.67
853.90	11.67
854.22	8.67
854.54	13.67
854.85	13.67
855.17	10.67
855.49	8.67
855.80	9.67
856.12	7.67
856.44	8.67
856.76	14.67
857.07	10.67
857.39	10.67
857.71	13.67
858.02	13.67
858.34	5.67
858.65	15.67
858.97	13.67
859.29	7.67
859.60	9.67
859.92	10.67
860.24	16.67
860.55	13.67
860.87	8.67
861.19	10.67
861.50	17.67
861.82	18.67
862.13	14.67
862.45	6.67
862.76	9.67
863.08	9.67
863.40	6.67
863.71	10.67
864.03	13.67
864.34	12.67
864.66	11.67
864.97	76.67
865.29	15.67
865.61	10.67
865.92	14.67
866.24	9.67
866.55	14.67
866.87	12.67
867.18	14.67
867.50	12.67
867.81	17.67
868.13	15.67
868.44	12.67
868.76	7.67
869.07	8.67
869.39	7.67
869.70	9.67
870.02	8.67
870.33	9.67
870.64	10.67
870.96	12.67
871.27	14.67
871.59	7.67
871.90	10.67
872.22	8.67
872.53	9.67
872.85	7.67
873.16	7.67
873.47	13.67
873.79	16.67
874.10	11.67
874.42	11.67
874.73	9.67
875.04	15.67
875.36	9.67
875.67	9.67
875.98	12.67
876.30	6.67
876.61	10.67
876.93	11.67
877.24	11.67
877.55	10.67
877.87	14.67
878.18	13.67
878.49	16.67
878.81	8.67
879.12	12.67
879.43	4.67
879.75	6.67
880.06	13.67
880.37	10.67
880.68	8.67
881.00	13.67
881.31	10.67
881.62	11.67
881.94	6.67
882.25	8.67
882.56	11.67
882.87	15.67
883.19	11.67
883.50	8.67
883.81	10.67
884.12	14.67
884.44	17.67
884.75	10.67
885.06	10.67
885.37	12.67
885.68	11.67
886.00	12.67
886.31	13.67
886.62	6.67
886.93	12.67
887.24	10.67
887.56	13.67
887.87	11.67
888.18	8.67
888.49	9.67
888.80	14.67
889.11	6.67
889.43	10.67
889.74	7.67
890.05	11.67
890.36	26.67
890.67	8.67
890.98	11.67
891.29	14.67
891.61	12.67
891.92	13.67
892.23	11.67
892.54	13.67
892.85	10.67
893.16	9.67
893.47	9.67
893.78	8.67
894.09	14.67
894.40	7.67
894.71	12.67
895.02	8.67
895.33	13.67
895.65	10.67
895.96	10.67
896.27	7.67
896.58	14.67
896.89	7.67
897.20	15.67
897.51	9.67
897.82	8.67
898.13	11.67
898.44	11.67
898.75	12.67
899.06	11.67
899.37	11.67
899.68	6.67
899.99	5.67
900.30	18.67
900.61	8.67
900.92	12.67
901.23	15.67
901.53	10.67
901.84	8.67
902.15	8.67
902.46	10.67
902.77	8.67
903.08	16.67
903.39	13.67
903.70	9.67
904.01	15.67
904.32	12.67
904.63	13.67
904.94	15.67
905.24	6.67
905.55	13.67
905.86	6.67
906.17	10.67
906.48	12.67
906.79	8.67
907.10	11.67
907.40	5.67
907.71	11.67
908.02	13.67
908.33	12.67
908.64	7.67
908.95	13.67
909.25	8.67
909.56	12.67
909.87	13.67
910.18	10.67
910.49	13.67
910.79	4.67
911.10	9.67
911.41	6.67
911.72	3.67
912.03	4.67
912.33	10.67
912.64	6.67
912.95	6.67
913.26	15.67
913.56	10.67
913.87	13.67
914.18	4.67
914.49	8.67
914.79	5.67
915.10	12.67
915.41	13.67
915.71	10.67
916.02	9.67
916.33	7.67
916.64	14.67
916.94	15.67
917.25	14.67
917.56	11.67
917.86	13.67
918.17	10.67
918.48	10.67
918.78	7.67
919.09	13.67
919.40	14.67
919.70	15.67
920.01	10.67
920.31	7.67
920.62	10.67
920.93	13.67
921.23	8.67
921.54	7.67
921.85	8.67
922.15	9.67
922.46	7.67
922.76	7.67
923.07	11.67
923.37	4.67
923.68	11.67
923.99	10.67
924.29	13.67
924.60	9.67
924.90	10.67
925.21	19.67
925.51	12.67
925.82	10.67
926.12	10.67
926.43	7.67
926.73	13.67
927.04	11.67
927.34	8.67
927.65	9.67
927.95	9.67
928.26	9.67
928.56	9.67
928.87	8.67
929.17	7.67
929.48	9.67
929.78	12.67
930.09	8.67
930.39	9.67
930.70	9.67
931.00	6.67
931.31	7.67
931.61	4.67
931.91	6.67
932.22	8.67
932.52	12.67
932.83	11.67
933.13	11.67
933.44	13.67
933.74	7.67
934.04	7.67
934.35	7.67
934.65	6.67
934.95	11.67
935.26	9.67
935.56	14.67
935.87	12.67
936.17	10.67
936.47	13.67
936.78	6.67
937.08	9.67
937.38	8.67
937.69	9.67
937.99	12.67
938.29	6.67
938.60	10.67
938.90	10.67
939.20	4.67
939.50	7.67
939.81	15.67
940.11	10.67
940.41	9.67
940.72	10.67
941.02	12.67
941.32	9.67
941.62	4.67
941.93	8.67
942.23	5.67
942.53	8.67
942.83	9.67
943.14	11.67
943.44	8.67
943.74	12.67
944.04	10.67
944.34	7.67
944.65	10.67
944.95	12.67
945.25	14.67
945.55	10.67
945.85	9.67
946.16	7.67
946.46	19.67
946.76	18.67
947.06	3.67
947.36	7.67
947.66	9.67
947.97	9.67
948.27	6.67
948.57	10.67
948.87	12.67
949.17	13.67
949.47	8.67
949.77	7.67
950.07	12.67
950.38	4.67
950.68	4.67
950.98	11.67
951.28	7.67
951.58	7.67
951.88	11.67
952.18	13.67
952.48	8.67
952.78	15.67
953.08	15.67
953.38	10.67
953.68	13.67
953.98	8.67
954.28	11.67
954.58	7.67
954.88	8.67
955.18	4.67
955.48	12.67
955.78	8.67
956.08	8.67
956.38	12.67
956.68	11.67
956.98	11.67
957.28	11.67
957.58	9.67
957.88	11.67
958.18	13.67
958.48	7.67
958.78	13.67
959.08	15.67
959.38	8.67
959.68	5.67
959.98	7.67
960.28	8.67
960.58	7.67
960.88	14.67
961.18	10.67
961.48	6.67
961.77	7.67
962.07	9.67
962.37	12.67
962.67	5.67
962.97	4.67
963.27	12.67
963.57	11.67
963.87	16.67
964.16	9.67
964.46	13.67
964.76	10.67
965.06	10.67
965.36	9.67
965.66	7.67
965.95	11.67
966.25	9.67
966.55	6.67
966.85	14.67
967.15	9.67
967.44	9.67
967.74	9.67
968.04	6.67
968.34	10.67
968.64	9.67
968.93	16.67
969.23	10.67
969.53	15.67
969.83	11.67
970.12	14.67
970.42	11.67
970.72	9.67
971.02	6.67
971.31	9.67
971.61	9.67
971.91	9.67
972.20	13.67
972.50	12.67
972.80	12.67
973.10	14.67
973.39	8.67
973.69	13.67
973.99	12.67
974.28	14.67
974.58	13.67
974.88	10.67
975.17	11.67
975.47	16.67
975.77	7.67
976.06	9.67
976.36	7.67
976.65	10.67
976.95	8.67
977.25	8.67
977.54	11.67
977.84	7.67
978.13	10.67
978.43	7.67
978.73	9.67
979.02	10.67
979.32	6.67
979.61	8.67
979.91	7.67
980.21	6.67
980.50	14.67
980.80	16.67
981.09	14.67
981.39	7.67
981.68	12.67
981.98	8.67
982.27	11.67
982.57	14.67
982.86	11.67
983.16	9.67
983.45	9.67
983.75	17.67
984.04	10.67
984.34	9.67
984.63	6.67
984.93	6.67
985.22	11.67
985.52	11.67
985.81	11.67
986.11	5.67
986.40	6.67
986.69	10.67
986.99	15.67
987.28	13.67
987.58	7.67
987.87	10.67
988.17	11.67
988.46	13.67
988.75	13.67
989.05	11.67
989.34	5.67
989.64	5.67
989.93	5.67
990.22	10.67
990.52	6.67
990.81	7.67
991.10	11.67
991.40	12.67
991.69	12.67
991.98	5.67
992.28	10.67
992.57	10.67
992.86	14.67
993.16	13.67
993.45	9.67
993.74	10.67
994.04	14.67
994.33	14.67
994.62	8.67
994.92	13.67
995.21	9.67
995.50	7.67
995.79	8.67
996.09	8.67
996.38	11.67
996.67	8.67
996.96	12.67
997.26	13.67
997.55	6.67
997.84	7.67
998.13	8.67
998.43	10.67
998.72	8.67
999.01	9.67
999.30	6.67
999.59	17.67
999.89	10.67
1000.18	10.67
1000.47	11.67
1000.76	12.67
1001.05	9.67
1001.34	13.67
1001.64	12.67
1001.93	9.67
1002.22	7.67
1002.51	11.67
1002.80	11.67
1003.09	13.67
1003.38	16.67
1003.68	10.67
1003.97	12.67
1004.26	12.67
1004.55	10.67
1004.84	13.67
1005.13	14.67
1005.42	6.67
1005.71	11.67
1006.00	12.67
1006.29	11.67
1006.58	5.67
1006.87	11.67
1007.17	9.67
1007.46	9.67
1007.75	14.67
1008.04	10.67
1008.33	7.67
1008.62	11.67
1008.91	8.67
1009.20	4.67
1009.49	6.67
1009.78	8.67
1010.07	11.67
1010.36	10.67
1010.65	11.67
1010.94	10.67
1011.23	13.67
1011.52	12.67
1011.81	7.67
1012.10	10.67
1012.39	12.67
1012.67	7.67
1012.96	13.67
1013.25	10.67
1013.54	6.67
1013.83	10.67
1014.12	8.67
1014.41	8.67
1014.70	12.67
1014.99	9.67
1015.28	11.67
1015.57	8.67
1015.86	10.67
1016.14	7.67
1016.43	8.67
1016.72	10.67
1017.01	9.67
1017.30	12.67
1017.59	10.67
1017.88	13.67
1018.16	10.67
1018.45	10.67
1018.74	9.67
1019.03	13.67
1019.32	7.67
1019.60	8.67
1019.89	10.67
1020.18	6.67
1020.47	11.67
1020.76	13.67
1021.04	10.67
1021.33	8.67
1021.62	9.67
1021.91	10.67
1022.20	13.67
1022.48	15.67
1022.77	13.67
1023.06	10.67
1023.35	12.67
1023.63	11.67
1023.92	11.67
1024.21	7.67
1024.49	6.67
1024.78	10.67
1025.07	8.67
1025.36	10.67
1025.64	11.67
1025.93	11.67
1026.22	10.67
1026.50	12.67
1026.79	12.67
1027.08	12.67
1027.36	9.67
1027.65	9.67
1027.94	9.67
1028.22	11.67
1028.51	10.67
1028.79	9.67
1029.08	8.67
1029.37	13.67
1029.65	10.67
1029.94	10.67
1030.23	18.67
1030.51	17.67
1030.80	12.67
1031.08	12.67
1031.37	24.67
1031.65	15.67
1031.94	10.67
1032.23	12.67
1032.51	15.67
1032.80	16.67
1033.08	13.67
1033.37	6.67
1033.65	13.67
1033.94	17.67
1034.22	11.67
1034.51	12.67
1034.79	20.67
1035.08	8.67
1035.36	17.67
1035.65	11.67
1035.93	13.67
1036.22	18.67
1036.50	16.67
1036.79	13.67
1037.07	9.67
1037.36	12.67
1037.64	16.67
1037.93	13.67
1038.21	10.67
1038.50	8.67
1038.78	15.67
1039.06	12.67
1039.35	11.67
1039.63	14.67
1039.92	11.67
1040.20	13.67
1040.48	15.67
1040.77	16.67
1041.05	13.67
1041.34	15.67
1041.62	13.67
1041.90	13.67
1042.19	12.67
1042.47	12.67
1042.75	12.67
1043.04	19.67
1043.32	11.67
1043.60	5.67
1043.89	12.67
1044.17	10.67
1044.45	11.67
1044.74	11.67
1045.02	12.67
1045.30	10.67
1045.59	12.67
1045.87	12.67
1046.15	13.67
1046.44	15.67
1046.72	16.67
1047.00	12.67
1047.28	11.67
1047.57	16.67
1047.85	15.67
1048.13	11.67
1048.41	14.67
1048.70	14.67
1048.98	9.67
1049.26	10.67
1049.54	16.67
1049.82	14.67
1050.11	9.67
1050.39	16.67
1050.67	15.67
1050.95	12.67
1051.23	13.67
1051.52	13.67
1051.80	9.67
1052.08	8.67
>>>>>End Processed Spectral Data<<<<<
